========================================================================
               rDataRecon  -  Dataset Comparison Report
========================================================================
  BASE    : ex_planned            6 obs  x  12 vars
  COMPARE : ex_actual             6 obs  x  12 vars
  Criterion : 1e-08  (absolute)
  Run time  : 2026-03-31 10:21:59
------------------------------------------------------------------------

  SECTION 1  -  Variable Structure
------------------------------------------------------------------------
  In BASE only    ( 0) : none
  In COMPARE only ( 0) : none

  SECTION 2  -  Variable Type Mismatches
------------------------------------------------------------------------
  All common variables have matching types.

  SECTION 3  -  Value Comparison
------------------------------------------------------------------------
  Variables with no differences (6): [suppressed]

  Variables WITH differences (4): EXDOSE, EXROUTE, EXENDTC, EPOCH

  Obs ID                        Variable            BASE value          COMPARE value       Difference
  ----------------------------  ------------------  ------------------  ------------------  ------------
  USUBJID = DR001-002 | EXSEQ   EXDOSE              10                  5                   5
  USUBJID = DR001-004 | EXSEQ   EXROUTE             ORAL                INTRAVENOUS         
  USUBJID = DR001-006 | EXSEQ   EXENDTC             2024-03-12          2024-02-28          
  USUBJID = DR001-003 | EXSEQ   EPOCH               TREATMENT           FOLLOW-UP           

  SECTION 4  -  Summary Statistics
------------------------------------------------------------------------
  Obs in BASE                                   6
  Obs in COMPARE                                6
  Obs in BASE only                              0
  Obs in COMPARE only                           0
  Variables in BASE                             12
  Variables in COMPARE                          12
  Variables in BASE only                        0
  Variables in COMPARE only                     0
  Variables with type mismatches                0
  Variables compared                            10
  Variables with all values equal               6
  Variables with any differences                4
  Total value differences                       4
========================================================================
  VERDICT :  DATASETS HAVE DIFFERENCES
========================================================================
